Black Body Radiation Experiment Tue, Oct 30, 2018 3:36 PM
Sensor Position (Degrees)	Light Intensity (Volts)
0.00000	0.00897
0.00000	0.00993
0.00000	0.00832
0.00000	0.00671
0.00000	0.01074
0.00000	0.00800
0.00000	0.00977
0.00000	0.00687
0.00000	0.00945
0.00000	0.01122
0.00000	0.00929
0.00000	0.00832
-0.01035	0.00752
-0.01035	0.00864
-0.01035	0.00961
-0.01035	0.01219
-0.01035	0.00752
-0.01035	0.00816
-0.01035	0.00720
-0.01035	0.00977
-0.01035	0.00720
-0.01035	0.00559
0.00000	0.00623
0.00000	0.00736
0.00000	0.00687
0.00000	0.01138
0.00000	0.00655
0.00000	0.00961
0.00000	0.00945
0.00000	0.00703
0.00000	0.01042
0.00000	0.00929
0.00000	0.01186
0.00000	0.01058
0.00000	0.01122
0.00000	0.00703
0.00000	0.00703
0.00000	0.00671
0.00000	0.01074
0.00000	0.01058
0.00000	0.00913
0.00000	0.00768
0.00000	0.01009
0.00000	0.00800
0.00000	0.01025
0.00000	0.00913
0.00000	0.01219
0.00000	0.00832
0.00000	0.01219
0.00000	0.01025
0.00000	0.00913
0.00000	0.00671
0.00000	0.00784
0.00000	0.00687
0.00000	0.00864
0.00000	0.00864
0.00000	0.00961
0.00000	0.01090
0.00000	0.00832
0.00000	0.00881
0.00000	0.01025
0.00000	0.00832
0.00000	0.01170
0.00000	0.00848
0.00000	0.00832
0.00000	0.00703
0.00000	0.00848
0.00000	0.01009
0.00000	0.00591
0.00000	0.00736
0.00000	0.00864
0.00000	0.00736
0.00000	0.00720
0.00000	0.00575
0.00000	0.00961
0.00000	0.00784
0.00000	0.00977
0.00000	0.01090
0.00000	0.01219
0.00000	0.01202
0.00000	0.00961
0.00000	0.00446
0.00000	0.00961
0.00000	0.01042
0.00000	0.00784
0.00000	0.01106
0.00000	0.00848
0.00000	0.00913
0.00000	0.00784
0.00000	0.00800
0.01035	0.00800
0.01035	0.00993
0.01035	0.00945
0.01035	0.00720
0.01035	0.00671
0.01035	0.01299
0.01035	0.00945
0.01035	0.00526
0.01035	0.00784
0.02070	0.01090
0.02070	0.01138
0.02070	0.00720
0.02070	0.00913
0.02070	0.01154
0.02070	0.00671
0.02070	0.00752
0.02070	0.00913
0.02070	0.00800
0.02070	0.00784
0.02070	0.01042
0.02070	0.00832
0.02070	0.00832
0.02070	0.01058
0.02070	0.00768
0.02070	0.01186
0.03104	0.00671
0.03104	0.01106
0.03104	0.01138
0.03104	0.00945
0.03104	0.01202
0.03104	0.00961
0.03104	0.00816
0.03104	0.00752
0.03104	0.01090
0.03104	0.01202
0.03104	0.01235
0.04139	0.00848
0.04139	0.01154
0.04139	0.01009
0.04139	0.00639
0.04139	0.01042
0.05174	0.00977
0.05174	0.01025
0.05174	0.01025
0.05174	0.00655
0.05174	0.00671
0.05174	0.00768
0.05174	0.00977
0.05174	0.01106
0.05174	0.01154
0.05174	0.01219
0.06209	0.00832
0.06209	0.00559
0.06209	0.01122
0.06209	0.00800
0.06209	0.00784
0.06209	0.00687
0.06209	0.00913
0.06209	0.00993
0.06209	0.00591
0.07244	0.00800
0.07244	0.01138
0.07244	0.00703
0.07244	0.00687
0.08279	0.00720
0.08279	0.00913
0.08279	0.01202
0.08279	0.00897
0.09313	0.00913
0.09313	0.00913
0.10348	0.00881
0.10348	0.01009
0.11383	0.00816
0.11383	0.00993
0.12418	0.00945
0.14487	0.00832
0.17592	0.01186
0.24836	0.01009
0.34149	0.00929
0.45532	0.00977
0.58985	0.00848
0.73472	0.00864
0.88994	0.00800
1.03482	0.01154
1.12795	0.00881
1.20039	0.00784
1.26248	0.00526
1.30387	0.01025
1.32457	0.00768
1.34527	0.01186
1.37631	0.00848
1.40735	0.00575
1.44875	0.01138
1.51084	0.00929
1.59362	0.00639
1.70745	0.00655
1.84198	0.00720
1.99720	0.01058
2.15242	0.00687
2.33869	0.00864
2.51461	0.01090
2.66983	0.00977
2.80436	0.01283
2.93889	0.01154
3.08376	0.01202
3.21829	0.00929
3.35282	0.00832
3.45630	0.01009
3.58048	0.01138
3.69431	0.00864
3.79779	0.00478
3.91162	0.01090
3.99440	0.01122
4.10823	0.00752
4.19102	0.00961
4.30485	0.00881
4.42903	0.00881
4.53251	0.00881
4.61530	0.00478
4.69808	0.00752
4.79121	0.01122
4.87400	0.01058
4.95679	0.00687
5.04992	0.00864
5.14305	0.01090
5.25688	0.00881
5.38106	0.00929
5.53628	0.01170
5.66046	0.01219
5.79499	0.00575
5.90882	0.00945
6.06404	0.00816
6.23996	0.00929
6.44693	0.00864
6.64354	0.01267
6.87120	0.01283
6.98503	0.00864
7.12991	0.01090
7.26443	0.00881
7.40931	0.01186
7.54383	0.00800
7.69906	0.01025
7.86463	0.00768
8.01985	0.00977
8.20612	0.01202
8.39239	0.01251
8.58900	0.01025
8.79597	0.01090
9.01328	0.00639
9.16850	0.01154
9.33407	0.00929
9.48930	0.00671
9.63417	0.00559
9.76870	0.00832
9.88253	0.01106
9.97566	0.00784
10.05845	0.01122
10.15158	0.00446
10.21367	0.00768
10.28611	0.00913
10.36889	0.01090
10.46203	0.00864
10.54481	0.01074
10.63795	0.01090
10.71038	0.01058
10.78282	0.00929
10.86561	0.00993
10.93804	0.00832
11.03118	0.01186
11.11396	0.01025
11.21744	0.01042
11.32093	0.01106
11.41406	0.01202
11.49685	0.00720
11.60033	0.01090
11.69346	0.01460
11.77625	0.00800
11.89008	0.01042
11.98321	0.01154
12.05565	0.00784
12.13843	0.00768
12.21087	0.01219
12.28331	0.00848
12.35575	0.00687
12.42818	0.01154
12.51097	0.01267
12.58341	0.01186
12.65584	0.00768
12.71793	0.01106
12.79037	0.01267
12.85246	0.00784
12.93525	0.00816
13.00768	0.01315
13.09047	0.01025
13.17325	0.00832
13.27674	0.01235
13.38022	0.01283
13.49405	0.01235
13.59753	0.01219
13.73206	0.00897
13.85623	0.00929
13.97006	0.01186
14.09424	0.00848
14.21842	0.01106
14.31156	0.01074
14.39434	0.01154
14.46678	0.01058
14.53922	0.00993
14.60130	0.01315
14.64270	0.00897
14.69444	0.00864
14.74618	0.01396
14.79792	0.01138
14.86001	0.01460
14.91175	0.01396
14.98419	0.01138
15.04628	0.01219
15.11871	0.01122
15.18080	0.01235
15.23254	0.01460
15.29463	0.01605
15.36707	0.01460
15.48090	0.01283
15.57404	0.01492
15.64647	0.01540
15.72926	0.01814
15.83274	0.01557
15.96727	0.01492
16.07075	0.01701
16.17423	0.02023
16.28806	0.01878
16.45363	0.02522
16.55711	0.02249
16.71234	0.02506
16.82617	0.02410
16.95035	0.03086
17.07452	0.02989
17.22975	0.03359
17.36427	0.03359
17.52984	0.04084
17.65402	0.03746
17.78855	0.03987
17.93342	0.04228
18.06795	0.04019
18.24387	0.04470
18.36805	0.04164
18.53362	0.04148
18.67849	0.04148
18.80267	0.04566
18.89581	0.04470
19.03033	0.04132
19.12347	0.04100
19.22695	0.03907
19.33043	0.04051
19.39252	0.04100
19.46496	0.03536
19.54774	0.03488
19.60983	0.03520
19.69262	0.03166
19.77540	0.03150
19.87888	0.03231
19.98237	0.02651
20.09620	0.02748
20.22038	0.02458
20.34455	0.02345
20.45838	0.02603
20.59291	0.02088
20.73778	0.01846
20.88266	0.01959
21.02753	0.01798
21.17241	0.01508
21.32763	0.01750
21.49320	0.01412
21.63808	0.01235
21.75191	0.01315
21.84504	0.01042
21.92783	0.01251
22.00026	0.01331
22.07270	0.01122
22.15549	0.01138
22.23827	0.00993
22.32106	0.01138
22.39350	0.00784
22.46593	0.00832
22.54872	0.00961
22.63150	0.01170
22.70394	0.01219
22.77638	0.00961
22.85917	0.00800
22.93160	0.01106
23.00404	0.01106
23.07648	0.01058
23.14891	0.00671
23.23170	0.01042
23.31449	0.01090
23.41797	0.01074
23.51110	0.01219
23.61458	0.01186
23.72841	0.00945
23.82155	0.01186
23.90433	0.01251
24.00781	0.00703
24.12165	0.01380
24.21478	0.01170
24.30791	0.01186
24.39070	0.01009
24.48383	0.01444
24.54592	0.01299
24.61836	0.00832
24.68045	0.01090
24.74254	0.01058
24.80463	0.01251
24.86672	0.01122
24.92880	0.01299
25.00124	0.01042
25.06333	0.01235
25.13577	0.00945
25.21855	0.01235
25.30134	0.01363
25.39447	0.01170
25.46691	0.01058
25.53935	0.00736
25.62213	0.00752
25.70492	0.00897
25.79805	0.00977
25.89119	0.01090
25.97397	0.00897
26.08780	0.01042
26.19128	0.01299
26.30511	0.01170
26.39825	0.01122
26.49138	0.01170
26.58452	0.01396
26.67765	0.01202
26.76044	0.01331
26.86392	0.01331
26.95705	0.01267
27.03984	0.01025
27.13297	0.01331
27.22610	0.01106
27.31924	0.01090
27.40202	0.01347
27.49516	0.00961
27.58829	0.01331
27.68142	0.01202
27.77456	0.01058
27.86769	0.01170
27.96083	0.00913
28.04361	0.01219
28.13675	0.01025
28.24023	0.01202
28.33336	0.00945
28.43684	0.01058
28.55067	0.00945
28.66450	0.00752
28.76799	0.00993
28.88182	0.01235
28.99565	0.01154
29.05773	0.00977
29.15087	0.00687
29.23365	0.00961
29.29574	0.00913
29.35783	0.01363
29.40957	0.00768
29.46131	0.00961
29.51306	0.01122
29.56480	0.01170
29.61654	0.01219
29.67863	0.01267
29.74072	0.01170
29.79246	0.01315
29.85455	0.01186
29.92698	0.01058
29.99942	0.01315
30.06151	0.01186
30.14430	0.00993
30.23743	0.01170
30.33056	0.00913
30.42370	0.01122
30.52718	0.00977
30.63066	0.01138
30.72379	0.01235
30.84797	0.00800
30.94111	0.01444
31.06528	0.01106
31.17911	0.01202
31.30329	0.00993
31.43782	0.00800
31.56200	0.00961
31.67583	0.01138
31.78966	0.01235
31.89314	0.01460
32.01732	0.01267
32.13115	0.00768
32.25533	0.01106
32.34846	0.01138
32.44159	0.01170
32.52438	0.01235
32.62786	0.00961
32.72100	0.01267
32.82448	0.00832
32.90726	0.01025
33.01075	0.01074
33.12458	0.01219
33.24875	0.01331
33.37293	0.01396
33.47641	0.01122
33.57990	0.01412
33.67303	0.01009
33.76616	0.01009
33.84895	0.01267
33.92139	0.01058
34.00417	0.00784
34.06626	0.01283
34.12835	0.00848
34.20079	0.01202
34.26288	0.01315
34.33531	0.01202
34.39740	0.01025
34.45949	0.01347
34.54228	0.01042
34.64576	0.01122
34.75959	0.00977
34.88377	0.01170
34.98725	0.01122
35.11143	0.00800
35.19421	0.01267
35.27700	0.00993
35.32874	0.00832
35.35979	0.01106
35.40118	0.01331
35.43222	0.01251
35.47362	0.00768
35.52536	0.00881
35.58745	0.01315
35.68058	0.01267
35.79441	0.00816
35.92894	0.01154
36.06346	0.01009
36.21869	0.01186
36.40495	0.01138
36.53948	0.01170
36.67401	0.01058
36.82923	0.00816
36.99480	0.00945
37.17072	0.01267
37.32594	0.01106
37.50186	0.01380
37.68813	0.00881
37.84335	0.01025
38.00892	0.01283
38.17450	0.01186
38.35041	0.00913
38.51599	0.01154
38.66086	0.01363
38.79539	0.01090
38.95061	0.00881
39.09548	0.01058
39.20932	0.00784
39.33349	0.01412
39.44732	0.00832
39.55081	0.01396
39.67498	0.01042
39.77847	0.01331
39.91299	0.01122
40.02682	0.01074
40.16135	0.01122
40.27518	0.01154
40.39936	0.01154
40.51319	0.00977
40.61667	0.01299
40.72015	0.01122
40.82363	0.01186
40.93746	0.01363
41.04095	0.01347
41.15478	0.01042
41.26861	0.01283
41.36174	0.00832
41.46522	0.01380
41.55836	0.01202
41.65149	0.00993
41.73427	0.00993
41.80671	0.01235
41.86880	0.01251
41.94124	0.00768
42.01368	0.01380
42.08611	0.00864
42.15855	0.01235
42.25168	0.01412
42.34482	0.00913
42.43795	0.01202
42.53109	0.01557
42.61387	0.01396
42.70701	0.01363
42.81049	0.01170
42.90362	0.01444
43.01745	0.01074
43.11058	0.00945
43.20372	0.01315
43.31755	0.00864
43.42103	0.01315
43.53486	0.01299
43.64869	0.00864
43.71078	0.01251
43.79357	0.01138
43.87635	0.01412
43.93844	0.00993
44.01088	0.00752
44.06262	0.01267
44.11436	0.00977
44.15575	0.01138
44.19715	0.01009
44.23854	0.01315
44.26958	0.01090
44.31098	0.01042
44.36272	0.01460
44.41446	0.01106
44.47655	0.01202
44.52829	0.00784
44.59038	0.01025
44.65247	0.01122
44.72490	0.01090
44.78699	0.00881
44.86978	0.01299
44.94222	0.01202
45.01465	0.01267
45.08709	0.01074
45.15953	0.00832
45.24231	0.01186
45.32510	0.00768
45.41823	0.01138
45.51137	0.00929
45.60450	0.01219
45.70798	0.00897
45.80112	0.01283
45.90460	0.01315
46.00808	0.01219
46.11156	0.01106
46.21504	0.01122
46.33922	0.01025
46.43236	0.01009
46.57723	0.01283
46.72211	0.01589
46.85663	0.00897
47.04290	0.01235
47.27056	0.00993
47.49822	0.01299
47.71553	0.01154
47.96389	0.01138
48.19155	0.00736
48.37782	0.00929
48.51234	0.01315
48.64687	0.01154
48.77105	0.00736
48.86418	0.01170
48.94697	0.01170
49.00906	0.01347
49.06080	0.01267
49.13324	0.01154
49.19532	0.00784
49.24707	0.01058
49.30915	0.01315
49.37124	0.01251
49.45403	0.01492
49.53681	0.01380
49.64030	0.01380
49.74378	0.01202
49.84726	0.01380
49.97144	0.01283
50.10597	0.01154
50.23014	0.01122
50.34397	0.01009
50.45780	0.01058
50.57163	0.01396
50.69581	0.01267
50.81999	0.01428
50.94417	0.01106
51.06835	0.01106
51.19253	0.01154
51.26496	0.01042
51.33740	0.01363
51.40984	0.01058
51.48228	0.01154
51.56506	0.00961
51.66854	0.01251
51.77203	0.01347
51.87551	0.01235
51.95829	0.01074
52.05143	0.01235
52.15491	0.01138
52.24804	0.01122
52.35152	0.01219
52.44466	0.01347
52.54814	0.01460
52.67232	0.01315
52.80684	0.00929
52.92067	0.00993
53.04485	0.01106
53.16903	0.01042
53.31391	0.00913
53.45878	0.01331
53.58296	0.01009
53.60366	0.01460
53.69679	0.01251
53.77958	0.01009
53.86236	0.01235
53.92445	0.01347
53.98654	0.01186
54.01758	0.01202
54.06932	0.01219
54.11072	0.00800
54.16246	0.01251
54.20385	0.00784
54.24524	0.00848
54.28664	0.01122
54.31768	0.01219
54.36942	0.00929
54.41082	0.00864
54.46256	0.01251
54.52465	0.01589
54.58673	0.01235
54.64882	0.01460
54.70056	0.00945
54.75231	0.01428
54.81439	0.00881
54.87648	0.01106
54.95927	0.01492
55.03171	0.01251
55.10414	0.01251
55.17658	0.00816
55.23867	0.01170
55.32146	0.01347
55.42494	0.01331
55.53877	0.01090
55.63190	0.01524
55.74573	0.01444
55.84921	0.01267
55.96304	0.01396
56.06653	0.01170
56.14931	0.01170
56.26314	0.00945
56.35628	0.01106
56.44941	0.01106
56.55289	0.01202
56.64603	0.00929
56.73916	0.01202
56.85299	0.01058
56.94612	0.01090
57.03926	0.01363
57.14274	0.01170
57.24622	0.01122
57.33935	0.00848
57.44284	0.00848
57.53597	0.01042
57.62910	0.01476
57.72224	0.01090
57.82572	0.01186
57.93955	0.01186
58.04303	0.01331
58.14651	0.01331
58.22930	0.00720
58.32243	0.01299
58.41557	0.01283
58.48800	0.00736
58.57079	0.01299
58.64323	0.00864
58.71566	0.01476
58.77775	0.01122
58.78810	0.01283
58.83984	0.01557
58.91228	0.01106
58.97437	0.01058
59.02611	0.01235
59.07785	0.01186
59.13994	0.01186
59.20203	0.01283
59.25377	0.01508
59.30551	0.01154
59.35725	0.01412
59.40899	0.01154
59.46073	0.01235
59.51248	0.01154
59.57456	0.01508
59.62631	0.01315
59.68840	0.00784
59.75048	0.00703
59.81257	0.01267
59.87466	0.01090
59.94710	0.01202
60.00919	0.01283
60.08163	0.00720
60.15406	0.01557
60.23685	0.01219
60.32998	0.01315
60.41277	0.00800
60.49555	0.01186
60.57834	0.01106
60.67147	0.01347
60.77496	0.01669
60.88879	0.01186
60.98192	0.01331
61.07505	0.01331
61.18888	0.01396
61.27167	0.01074
61.37515	0.01219
61.48898	0.01267
61.59246	0.01412
61.70629	0.01251
61.82012	0.01460
61.91326	0.01122
62.03744	0.01186
62.14092	0.01090
62.25475	0.01508
62.36858	0.01122
62.48241	0.01186
62.62728	0.01331
62.74111	0.01090
62.85494	0.01202
62.98947	0.00961
63.11365	0.01202
63.21713	0.01219
63.33096	0.01106
63.42409	0.00961
63.51723	0.01347
63.60001	0.01380
63.68280	0.01283
63.76558	0.01428
63.83802	0.01090
63.88976	0.01444
63.94150	0.01412
63.98290	0.01042
64.03464	0.01380
64.09673	0.01524
64.14847	0.01219
64.20021	0.01444
64.25195	0.01283
64.30369	0.00945
64.35543	0.01251
64.40717	0.01299
64.46926	0.01460
64.54170	0.00897
64.59344	0.01154
64.65553	0.01605
64.71762	0.01380
64.77971	0.01331
64.83145	0.01106
64.88319	0.01444
64.94528	0.01009
64.98667	0.01025
65.03841	0.01235
65.10050	0.01251
65.16259	0.01154
65.22468	0.01605
65.27642	0.01025
65.33851	0.01251
65.39025	0.01444
65.45234	0.00881
65.52478	0.01042
65.57652	0.01283
65.64896	0.01202
65.72139	0.01025
65.79383	0.01380
65.85592	0.01412
65.93871	0.01428
66.01114	0.01508
66.08358	0.01009
66.13532	0.01170
66.18706	0.01685
66.22846	0.01363
66.25950	0.01540
66.28020	0.01170
66.31124	0.01444
66.34229	0.01557
66.36298	0.01380
66.39403	0.01524
66.41472	0.01492
66.44577	0.01235
66.47681	0.01476
66.50786	0.01283
66.53890	0.01235
66.58029	0.01428
66.62169	0.01621
66.66308	0.01219
66.71482	0.01701
66.77691	0.01251
66.83900	0.01444
66.91144	0.01202
66.98387	0.00993
67.06666	0.01331
67.14944	0.01460
67.23223	0.01508
67.32536	0.01412
67.43919	0.01782
67.54268	0.01508
67.65651	0.01830
67.73929	0.02104
67.83243	0.02136
67.91521	0.02571
68.00834	0.02474
68.10148	0.03247
68.17392	0.03408
68.27740	0.03649
68.34984	0.03536
68.42227	0.04068
68.50506	0.04003
68.58784	0.04325
68.67063	0.04212
68.74307	0.04470
68.82585	0.04277
68.89829	0.04422
68.97073	0.04518
69.04316	0.04132
69.10525	0.04196
69.17769	0.03633
69.23978	0.03697
69.30187	0.03552
69.37431	0.03295
69.43640	0.02989
69.49849	0.02941
69.56057	0.02876
69.63301	0.02780
69.70545	0.02522
69.76754	0.02377
69.82963	0.02217
69.89172	0.02233
69.94346	0.01830
70.00555	0.01750
70.06764	0.01653
70.12972	0.02007
70.19181	0.01830
70.25390	0.01540
70.32634	0.01621
70.39878	0.01701
70.47122	0.01444
70.54365	0.01557
70.61609	0.01476
70.68853	0.01750
70.77131	0.01701
70.86445	0.01380
70.93688	0.01557
71.00932	0.01380
71.09211	0.00993
71.17489	0.01718
71.24733	0.01444
71.33012	0.01315
71.40255	0.01557
71.46464	0.01267
71.52673	0.01492
71.58882	0.01267
71.65091	0.01476
71.72335	0.01605
71.79578	0.01621
71.84753	0.01122
71.91996	0.01508
71.98205	0.01170
72.04414	0.01653
72.11658	0.01573
72.17867	0.01476
72.24076	0.01605
72.30285	0.01718
72.36494	0.01476
72.42702	0.01476
72.49946	0.01219
72.56155	0.01170
72.63399	0.01042
72.69608	0.01299
72.75817	0.01508
72.82026	0.01637
72.89269	0.01299
72.95478	0.01492
73.02722	0.01122
73.08931	0.01380
73.15140	0.01412
73.22384	0.01540
73.29627	0.01476
73.34801	0.01444
73.39975	0.01122
73.44115	0.01589
73.49289	0.01508
73.53428	0.01557
73.57567	0.01653
73.61707	0.01331
73.65846	0.01299
73.71020	0.01412
73.75159	0.01508
73.79299	0.01412
73.84473	0.01251
73.89647	0.01718
73.93786	0.01444
73.98960	0.01444
74.05169	0.01412
74.09308	0.01460
74.15517	0.01589
74.20691	0.01347
74.27935	0.01701
74.34144	0.01428
74.41388	0.01557
74.49666	0.01492
74.56910	0.01460
74.65189	0.01621
74.72432	0.01219
74.80711	0.01476
74.88990	0.00977
74.98303	0.01508
75.07616	0.01267
75.16930	0.01267
75.25208	0.01396
75.33487	0.01219
75.42800	0.01540
75.51079	0.01621
75.61427	0.01508
75.70740	0.01605
75.81088	0.01557
75.90402	0.01621
76.01785	0.01363
76.13168	0.01299
76.23516	0.01573
76.33864	0.01750
76.44212	0.01508
76.54561	0.01444
76.66978	0.01734
76.77327	0.01734
76.88710	0.01540
77.01128	0.01122
77.11476	0.01589
77.21824	0.01492
77.31137	0.01573
77.41486	0.01396
77.51834	0.01428
77.63217	0.01347
77.74600	0.01637
77.87018	0.01701
77.98401	0.01219
78.09784	0.01074
78.21167	0.01202
78.31515	0.01444
78.38759	0.01299
78.46002	0.01734
78.53246	0.01331
78.59455	0.01669
78.65664	0.01653
78.69803	0.01637
78.74977	0.01331
78.79117	0.01444
78.83256	0.01396
78.87395	0.01331
78.90500	0.01186
78.94639	0.01412
78.97743	0.01219
79.01883	0.01653
79.06022	0.01476
79.11196	0.01653
79.16370	0.01412
79.22579	0.01637
79.28788	0.01283
79.36032	0.01460
79.44310	0.01460
79.53624	0.01202
79.61902	0.01701
79.71215	0.01122
79.79494	0.01540
79.90877	0.01573
80.00190	0.01363