Black Body Radiation Experiment Tue, Oct 30, 2018 3:30 PM
Sensor Position (Degrees)	Light Intensity (Volts)
0.00000	0.22562
0.00000	0.22320
0.00000	0.21210
0.00000	0.22594
0.00000	0.22079
0.00000	0.21419
0.00000	0.21644
0.00000	0.21870
0.00000	0.21596
0.00000	0.20614
0.00000	0.20421
0.00000	0.22674
0.00000	0.22449
0.00000	0.21258
0.00000	0.21660
0.00000	0.21113
0.00000	0.21258
0.00000	0.22143
0.00000	0.19600
0.00000	0.20421
0.00000	0.20179
0.00000	0.22449
0.00000	0.22369
0.00000	0.20936
0.00000	0.20083
0.00000	0.22723
0.00000	0.22803
0.00000	0.22320
0.00000	0.21966
0.00000	0.21789
0.00000	0.21483
0.00000	0.23721
0.00000	0.21628
0.00000	0.21451
0.00000	0.21226
0.00000	0.22771
0.00000	0.21870
0.00000	0.21129
0.00000	0.22272
0.00000	0.23093
0.00000	0.19809
0.00000	0.19664
0.00000	0.21934
0.00000	0.22851
0.00000	0.20727
0.00000	0.20775
0.00000	0.21709
0.00000	0.21709
0.00000	0.20823
0.00000	0.21789
0.00000	0.21596
0.00000	0.20340
0.00000	0.20936
0.00000	0.21483
0.00000	0.21306
0.00000	0.21580
0.00000	0.20244
0.00000	0.18473
0.00000	0.21049
0.00000	0.21177
0.00000	0.21129
0.00000	0.20984
0.00000	0.20324
0.00000	0.20389
0.00000	0.22369
0.01035	0.22771
0.01035	0.20260
0.01035	0.21145
0.01035	0.20662
0.01035	0.20888
0.01035	0.20035
0.01035	0.20244
0.01035	0.20196
0.01035	0.21612
0.01035	0.20163
0.01035	0.20421
0.01035	0.22417
0.01035	0.21371
0.01035	0.21097
0.01035	0.20276
0.01035	0.21419
0.01035	0.22932
0.01035	0.22175
0.01035	0.20920
0.01035	0.22336
0.01035	0.21532
0.01035	0.20131
0.01035	0.20614
0.01035	0.20952
0.01035	0.21692
0.01035	0.19729
0.01035	0.21081
0.01035	0.22047
0.01035	0.21596
0.01035	0.22642
0.01035	0.22336
0.01035	0.21242
0.01035	0.23077
0.01035	0.22529
0.01035	0.21741
0.01035	0.23012
0.01035	0.21628
0.01035	0.22224
0.01035	0.23189
0.01035	0.22014
0.01035	0.21837
0.01035	0.21242
0.01035	0.21354
0.01035	0.21596
0.01035	0.22047
0.01035	0.21016
0.01035	0.22610
0.01035	0.23189
0.01035	0.20727
0.01035	0.21837
0.01035	0.21628
0.01035	0.22336
0.01035	0.22594
0.01035	0.20759
0.01035	0.21354
0.01035	0.21403
0.01035	0.22867
0.01035	0.23141
0.01035	0.22546
0.01035	0.21145
0.01035	0.21161
0.01035	0.21161
0.01035	0.23334
0.01035	0.22159
0.01035	0.20453
0.01035	0.19278
0.01035	0.19439
0.02070	0.21998
0.02070	0.21692
0.02070	0.20872
0.02070	0.20002
0.01035	0.21870
0.01035	0.21676
0.01035	0.19954
0.01035	0.20662
0.01035	0.21853
0.01035	0.23205
0.01035	0.22835
0.01035	0.20228
0.01035	0.21338
0.01035	0.23173
0.01035	0.21596
0.01035	0.22562
0.01035	0.22014
0.01035	0.20727
0.01035	0.22562
0.01035	0.21966
0.01035	0.22320
0.02070	0.21145
0.02070	0.21113
0.02070	0.21451
0.02070	0.22980
0.02070	0.21451
0.02070	0.20179
0.03104	0.21612
0.03104	0.21451
0.03104	0.22352
0.04139	0.22240
0.04139	0.21129
0.04139	0.21773
0.04139	0.21081
0.04139	0.21258
0.04139	0.22771
0.05174	0.22143
0.05174	0.20228
0.05174	0.18506
0.06209	0.21097
0.07244	0.22578
0.07244	0.22932
0.08279	0.22674
0.09313	0.22240
0.11383	0.21515
0.13453	0.23222
0.15522	0.21950
0.20696	0.22401
0.33114	0.21821
0.45532	0.20856
0.56915	0.19986
0.67263	0.21161
0.75542	0.21435
0.81751	0.21837
0.86925	0.19858
0.91064	0.18924
0.95203	0.19970
0.98308	0.21226
1.00378	0.21612
1.03482	0.22288
1.07621	0.23045
1.14865	0.21725
1.22109	0.21451
1.29352	0.21338
1.39701	0.20936
1.52118	0.22014
1.62467	0.22932
1.71780	0.21709
1.82128	0.22191
1.93511	0.21580
2.04894	0.21129
2.18347	0.21322
2.29730	0.21886
2.42148	0.22095
2.51461	0.20485
2.63879	0.21049
2.76297	0.20019
2.91819	0.22755
3.05272	0.20550
3.19759	0.21789
3.34247	0.20598
3.49769	0.21902
3.66326	0.20904
3.82883	0.21982
3.99440	0.22449
4.15997	0.22336
4.32555	0.22449
4.49112	0.21853
4.65669	0.19713
4.83261	0.20984
4.97748	0.19407
5.12236	0.20775
5.23619	0.19520
5.37071	0.21113
5.47420	0.20662
5.56733	0.21403
5.67081	0.22143
5.74325	0.20099
5.81569	0.19970
5.87778	0.20099
5.95021	0.20212
6.00195	0.19584
6.06404	0.19616
6.12613	0.19616
6.20892	0.21821
6.28136	0.21016
6.36414	0.21805
6.45727	0.21242
6.56076	0.21676
6.68493	0.21612
6.77807	0.21145
6.88155	0.20517
6.99538	0.18763
7.10921	0.21258
7.23339	0.18538
7.33687	0.20292
7.41966	0.20469
7.49209	0.20517
7.55418	0.20952
7.61627	0.20228
7.67836	0.21033
7.73010	0.19681
7.77150	0.20212
7.81289	0.19117
7.85428	0.19616
7.88533	0.20807
7.91637	0.18908
7.94741	0.21306
7.99916	0.20019
8.04055	0.21467
8.08194	0.20646
8.13368	0.22143
8.18542	0.21387
8.23716	0.21226
8.29925	0.22900
8.36134	0.21371
8.43378	0.21033
8.50622	0.19310
8.57865	0.20453
8.66144	0.20099
8.74423	0.20389
8.82701	0.19584
8.92015	0.18827
8.99258	0.20083
9.08572	0.22288
9.15815	0.21805
9.26164	0.21564
9.34442	0.20083
9.41686	0.20212
9.47895	0.20035
9.55139	0.21580
9.64452	0.20920
9.72730	0.21097
9.79974	0.20598
9.88253	0.21596
9.96531	0.21322
10.04810	0.21049
10.12054	0.21387
10.18262	0.21226
10.25506	0.20357
10.32750	0.20759
10.39994	0.20984
10.47237	0.20099
10.54481	0.21354
10.60690	0.21129
10.67934	0.20823
10.75178	0.21870
10.81386	0.21934
10.88630	0.22771
10.96909	0.22594
11.03118	0.21596
11.09327	0.21483
11.14501	0.22240
11.20710	0.21628
11.26919	0.20131
11.33127	0.20952
11.38302	0.21725
11.43476	0.22352
11.49685	0.22465
11.55894	0.21741
11.62102	0.21725
11.67277	0.21483
11.73485	0.20807
11.78660	0.21886
11.84868	0.21725
11.92112	0.21998
11.98321	0.22626
12.05565	0.22288
12.12809	0.22208
12.19018	0.22819
12.27296	0.22707
12.35575	0.23012
12.43853	0.21660
12.51097	0.20646
12.59375	0.21564
12.66619	0.20872
12.74898	0.21676
12.81107	0.21354
12.87316	0.23205
12.94559	0.22513
13.00768	0.24863
13.08012	0.24590
13.17325	0.22465
13.24569	0.24638
13.31813	0.23640
13.39057	0.23994
13.46300	0.24976
13.54579	0.25427
13.60788	0.24477
13.70101	0.24445
13.76310	0.26038
13.82519	0.26135
13.91832	0.24316
13.99076	0.26586
14.04250	0.26087
14.14598	0.25539
14.20807	0.23672
14.28051	0.26280
14.35295	0.26940
14.42539	0.26521
14.50817	0.25620
14.55991	0.27938
14.62200	0.29563
14.68409	0.28115
14.75653	0.30481
14.80827	0.29531
14.88071	0.32686
14.93245	0.33346
14.97384	0.35374
15.03593	0.36565
15.08767	0.36324
15.13941	0.38899
15.17046	0.37161
15.20150	0.40412
15.23254	0.41410
15.27394	0.42810
15.31533	0.46239
15.35672	0.47027
15.38777	0.47494
15.41881	0.48460
15.42916	0.50343
15.44986	0.49377
15.49125	0.53675
15.52229	0.55172
15.56369	0.56025
15.60508	0.58069
15.65682	0.60323
15.70856	0.65280
15.77065	0.70543
15.83274	0.73827
15.88448	0.77658
15.93622	0.85706
15.98796	0.91725
16.02936	0.95460
16.09144	1.00820
16.14319	1.08964
16.19493	1.14501
16.24667	1.20779
16.30876	1.27635
16.37085	1.35893
16.43294	1.44198
16.49502	1.51683
16.55711	1.57590
16.63990	1.66491
16.72268	1.75939
16.79512	1.86707
16.86756	1.93178
16.92965	2.02079
17.02278	2.11978
17.09522	2.17998
17.18835	2.25112
17.25044	2.29667
17.35392	2.37313
17.42636	2.42448
17.54019	2.47808
17.64367	2.50126
17.71611	2.55840
17.84029	2.59461
17.92308	2.65014
18.01621	2.65047
18.13004	2.65417
18.21283	2.66045
18.27491	2.62471
18.33700	2.60314
18.41979	2.58367
18.50257	2.57272
18.57501	2.52637
18.64745	2.46552
18.71989	2.42560
18.80267	2.36235
18.88546	2.31341
18.95790	2.23599
19.03033	2.17290
19.11312	2.13169
19.19590	2.03495
19.26834	1.97057
19.35113	1.89025
19.43391	1.77903
19.51670	1.71352
19.59948	1.63416
19.68227	1.55111
19.74436	1.47176
19.81680	1.37937
19.87888	1.29953
19.93063	1.22533
19.98237	1.14743
20.04446	1.08031
20.10655	1.00997
20.16863	0.95315
20.23072	0.88893
20.28246	0.83565
20.33421	0.78285
20.39629	0.72620
20.44804	0.67759
20.49978	0.62576
20.54117	0.59469
20.59291	0.55204
20.63430	0.51357
20.68604	0.49796
20.73778	0.44726
20.77918	0.43213
20.84127	0.41844
20.89301	0.40557
20.95510	0.38464
21.01719	0.37804
21.07928	0.36034
21.14136	0.35937
21.20345	0.35020
21.27589	0.34408
21.33798	0.33121
21.40007	0.33410
21.45181	0.33845
21.51390	0.30771
21.56564	0.32622
21.62773	0.31205
21.66912	0.29080
21.72086	0.28308
21.77260	0.27712
21.83469	0.28726
21.89678	0.28437
21.97957	0.29467
22.06235	0.28775
22.14514	0.28903
22.23827	0.29934
22.32106	0.29402
22.40384	0.28517
22.48663	0.29145
22.55907	0.29386
22.62116	0.29080
22.67290	0.28292
22.72464	0.29290
22.77638	0.29113
22.81777	0.28163
22.85917	0.27970
22.90056	0.27600
22.95230	0.27809
22.98334	0.27954
23.03508	0.28066
23.08683	0.27600
23.13857	0.28179
23.19031	0.27857
23.25240	0.29161
23.32483	0.28388
23.38692	0.26924
23.43866	0.28243
23.50075	0.28388
23.56284	0.28131
23.62493	0.27922
23.68702	0.28179
23.73876	0.27567
23.80085	0.28324
23.87329	0.26537
23.94573	0.27696
24.00781	0.27519
24.08025	0.26183
24.15269	0.26602
24.21478	0.27954
24.28722	0.28614
24.35965	0.28791
24.42174	0.29821
24.48383	0.28195
24.56662	0.29048
24.63905	0.28453
24.72184	0.27310
24.77358	0.27278
24.83567	0.26763
24.89776	0.27278
24.94950	0.27551
25.02194	0.29483
25.06333	0.28324
25.12542	0.30690
25.17716	0.28388
25.23925	0.29676
25.30134	0.29402
25.35308	0.29177
25.39447	0.28163
25.43587	0.27342
25.47726	0.29531
25.51865	0.28517
25.54970	0.29306
25.59109	0.29676
25.62213	0.28855
25.66353	0.29129
25.69457	0.30127
25.73596	0.28984
25.77736	0.28710
25.81875	0.29322
25.86014	0.27728
25.90153	0.26875
25.95328	0.27825
25.99467	0.29547
26.04641	0.29258
26.09815	0.27616
26.16024	0.28807
26.20163	0.29258
26.25337	0.29644
26.30511	0.29740
26.35686	0.29241
26.41894	0.30062
26.47069	0.29563
26.53277	0.28533
26.60521	0.29982
26.67765	0.29917
26.76044	0.30384
26.85357	0.30384
26.95705	0.30867
27.02949	0.28469
27.11227	0.27374
27.21576	0.28791
27.30889	0.29515
27.42272	0.28549
27.52620	0.29161
27.64003	0.29805
27.73317	0.29483
27.82630	0.28984
27.92978	0.30095
28.03326	0.30931
28.11605	0.30706
28.18849	0.29209
28.25058	0.29515
28.31266	0.29934
28.37475	0.29000
28.41615	0.29966
28.46789	0.29306
28.52998	0.27503
28.60241	0.29418
28.68520	0.30111
28.77833	0.29531
28.87147	0.30384
28.98530	0.29467
29.09913	0.30046
29.21296	0.29290
29.32679	0.30400
29.44062	0.30078
29.56480	0.31913
29.67863	0.31318
29.80280	0.30352
29.91663	0.31382
30.00977	0.30191
30.10290	0.28903
30.18569	0.30352
30.26847	0.29692
30.35126	0.28759
30.41335	0.30046
30.48579	0.28050
30.55822	0.29418
30.64101	0.30223
30.72379	0.28549
30.79623	0.27873
30.87902	0.30465
30.97215	0.28855
31.05494	0.32074
31.13772	0.30980
31.22051	0.32332
31.31364	0.31286
31.39643	0.30948
31.48956	0.30948
31.58269	0.32106
31.66548	0.29338
31.74827	0.30046
31.84140	0.29064
31.93453	0.29596
32.02767	0.29708
32.12080	0.30127
32.21393	0.29692
32.30707	0.30787
32.40020	0.30980
32.49334	0.32332
32.57612	0.31366
32.66926	0.30931
32.76239	0.30014
32.86587	0.30867
32.95900	0.30771
33.05214	0.28614
33.14527	0.30803
33.23841	0.29821
33.33154	0.29354
33.41433	0.28034
33.50746	0.29563
33.59024	0.29322
33.69373	0.28598
33.79721	0.29225
33.90069	0.29805
34.02487	0.28163
34.13870	0.29853
34.26288	0.30690
34.38706	0.30819
34.50089	0.31205
34.59402	0.30207
34.67681	0.30835
34.76994	0.30883
34.85272	0.33169
34.95621	0.31076
35.03899	0.32766
35.11143	0.32139
35.17352	0.30175
35.23561	0.30368
35.30805	0.31189
35.37013	0.30867
35.44257	0.30095
35.50466	0.30980
35.56675	0.30433
35.64954	0.30964
35.72197	0.30931
35.79441	0.30610
35.87720	0.31286
35.94963	0.30239
36.01172	0.30433
36.07381	0.31865
36.15660	0.30706
36.21869	0.31205
36.30147	0.31849
36.36356	0.31785
36.43600	0.31286
36.51878	0.30674
36.58087	0.32155
36.66366	0.31076
36.75679	0.30883
36.86027	0.32622
36.96376	0.30706
37.06724	0.30352
37.16037	0.31221
37.25351	0.31060
37.33629	0.30626
37.39838	0.30867
37.46047	0.30175
37.53291	0.30449
37.60534	0.31398
37.66743	0.30545
37.73987	0.30384
37.81231	0.30545
37.88475	0.30416
37.95718	0.30143
38.02962	0.31398
38.12275	0.30481
38.19519	0.30352
38.27798	0.29064
38.36076	0.29724
38.43320	0.30771
38.51599	0.28340
38.59877	0.28710
38.70225	0.29080
38.79539	0.30255
38.88852	0.29805
38.96096	0.30497
39.05409	0.29901
39.14723	0.30143
39.23001	0.30497
39.32315	0.31447
39.39558	0.30996
39.48872	0.31125
39.59220	0.31978
39.67498	0.31447
39.75777	0.30513
39.84055	0.29193
39.91299	0.28694
39.98543	0.29145
40.06822	0.29354
40.14065	0.30095
40.21309	0.29113
40.27518	0.30078
40.34762	0.29869
40.40971	0.29000
40.49249	0.28742
40.56493	0.28549
40.62702	0.30095
40.68911	0.29322
40.76154	0.30948
40.82363	0.30948
40.88572	0.30996
40.93746	0.29950
40.99955	0.30014
41.06164	0.27503
41.11338	0.29596
41.17547	0.30127
41.23756	0.30175
41.29965	0.30899
41.36174	0.29934
41.42383	0.29080
41.50661	0.29113
41.58940	0.29064
41.66184	0.29209
41.75497	0.29386
41.84811	0.29966
41.93089	0.28710
42.04472	0.29274
42.13785	0.30239
42.24134	0.30272
42.33447	0.31109
42.42760	0.29048
42.52074	0.30272
42.61387	0.30771
42.70701	0.29628
42.80014	0.30095
42.90362	0.29467
42.98641	0.28533
43.07954	0.28276
43.17267	0.30980
43.26581	0.29209
43.33825	0.29080
43.43138	0.28936
43.52451	0.29950
43.60730	0.28598
43.69008	0.30288
43.78322	0.29145
43.88670	0.30626
43.97983	0.29451
44.06262	0.30915
44.14540	0.30336
44.20749	0.29998
44.25923	0.31640
44.31098	0.32734
44.37306	0.31511
44.42481	0.31253
44.47655	0.30931
44.53864	0.30529
44.59038	0.30754
44.64212	0.30416
44.68351	0.30529
44.72490	0.30239
44.75595	0.28565
44.79734	0.29885
44.83873	0.28453
44.88013	0.30320
44.92152	0.29966
44.96291	0.30368
45.00430	0.30835
45.05605	0.30255
45.10779	0.30626
45.14918	0.29402
45.19057	0.29032
45.24231	0.29998
45.30440	0.30368
45.35614	0.29740
45.40788	0.30272
45.45963	0.30706
45.51137	0.31318
45.57346	0.31913
45.63554	0.31656
45.68729	0.30288
45.74937	0.31044
45.82181	0.32316
45.88390	0.31640
45.92529	0.31849
45.97704	0.31125
46.01843	0.32380
46.04947	0.30899
46.10121	0.31028
46.15295	0.31881
46.23574	0.30513
46.30818	0.32267
46.40131	0.31495
46.48410	0.30964
46.58758	0.29644
46.71176	0.29515
46.84628	0.30078
46.99116	0.30175
47.11534	0.31189
47.23952	0.30255
47.38439	0.31092
47.53961	0.30690
47.69484	0.32461
47.85006	0.29853
48.01563	0.29692
48.18120	0.30336
48.32608	0.30175
48.47095	0.29837
48.62617	0.30835
48.65722	0.31253
48.75035	0.30400
48.87453	0.30400
49.00906	0.30883
49.13324	0.32251
49.27811	0.33298
49.42298	0.32300
49.52647	0.32654
49.64030	0.31785
49.75413	0.30223
49.86796	0.29628
49.98179	0.31221
50.05422	0.29676
50.11631	0.30078
50.18875	0.31092
50.24049	0.29241
50.32328	0.29451
50.38537	0.29660
50.46815	0.29660
50.54059	0.30127
50.63372	0.31463
50.72686	0.30255
50.84069	0.31559
50.93382	0.31125
51.02695	0.31350
51.10974	0.31141
51.19253	0.32364
51.27531	0.30980
51.35810	0.30095
51.46158	0.30642
51.54436	0.30433
51.64785	0.31173
51.75133	0.29773
51.83411	0.30449
51.92725	0.29885
52.01003	0.29853
52.09282	0.28952
52.17560	0.29950
52.24804	0.30465
52.31013	0.28887
52.37222	0.29290
52.44466	0.29917
52.50675	0.29724
52.57918	0.28952
52.64127	0.29660
52.71371	0.30127
52.78615	0.29757
52.86893	0.30433
52.95172	0.29853
53.04485	0.31092
53.12764	0.30352
53.22077	0.31575
53.32425	0.29934
53.40704	0.31382
53.51052	0.30593
53.58296	0.30706
53.65540	0.30127
53.73818	0.29145
53.82097	0.30561
53.91410	0.29853
54.01758	0.28227
54.11072	0.28292
54.21420	0.28421
54.31768	0.29386
54.43151	0.30143
54.53499	0.29113
54.62813	0.30465
54.72126	0.30336
54.81439	0.29596
54.89718	0.29113
54.99031	0.29097
55.07310	0.28887
55.14554	0.27648
55.20763	0.28646
55.26972	0.28807
55.33180	0.30867
55.39389	0.30449
55.44563	0.31768
55.50772	0.31527
55.55946	0.29821
55.60086	0.28485
55.66295	0.29032
55.70434	0.30111
55.75608	0.30320
55.80782	0.30320
55.84921	0.30416
55.90096	0.30030
55.95270	0.30561
56.02513	0.29354
56.08722	0.29515
56.15966	0.28243
56.22175	0.28372
56.29419	0.29161
56.36662	0.31672
56.43906	0.29950
56.53220	0.30980
56.60463	0.32058
56.69777	0.31157
56.78055	0.30964
56.87369	0.30384
56.96682	0.28582
57.05995	0.29322
57.14274	0.29258
57.22552	0.28099
57.30831	0.30449
57.40144	0.30706
57.50493	0.30159
57.58771	0.32750
57.69119	0.31881
57.79468	0.31929
57.88781	0.30867
57.99129	0.31318
58.08442	0.30931
58.17756	0.31157
58.27069	0.33249
58.35348	0.32477
58.44661	0.34279
58.51905	0.32074
58.60183	0.33362
58.68462	0.34199
58.75706	0.33539
58.83984	0.31736
58.93298	0.30803
59.01576	0.31463
59.10890	0.31044
59.19168	0.31688
59.29516	0.31447
59.38830	0.33281
59.48143	0.34408
59.55387	0.33330
59.63665	0.32815
59.70909	0.33088
59.78153	0.32799
59.84362	0.32831
59.90571	0.33169
59.95745	0.32670
60.01954	0.33072
60.07128	0.32766
60.13337	0.33056
60.19546	0.32895
60.26789	0.33732
60.32998	0.34344
60.41277	0.33652
60.49555	0.33829
60.56799	0.32831
60.64043	0.32992
60.71287	0.35535
60.77496	0.35004
60.85774	0.34489
60.95088	0.33587
61.05436	0.35728
61.15784	0.34955
61.27167	0.35277
61.39585	0.34923
61.52003	0.33668
61.65455	0.34215
61.78908	0.34843
61.93395	0.35116
62.08918	0.36613
62.25475	0.35680
62.42032	0.37450
62.59624	0.37595
62.75146	0.36967
62.90668	0.36211
63.06191	0.36372
63.22748	0.35487
63.36200	0.36517
63.49653	0.35374
63.60001	0.36790
63.70350	0.36662
63.81733	0.36903
63.92081	0.39156
64.04499	0.37756
64.15882	0.39494
64.26230	0.37418
64.36578	0.37579
64.46926	0.37627
64.57274	0.37595
64.67623	0.37563
64.76936	0.38915
64.85214	0.37563
64.93493	0.38770
65.00737	0.41410
65.10050	0.40750
65.18329	0.40605
65.27642	0.40428
65.35921	0.40331
65.45234	0.39430
65.56617	0.39446
65.68000	0.39575
65.79383	0.39462
65.88696	0.40943
65.98010	0.42054
66.06288	0.42005
66.14567	0.45080
66.21811	0.46078
66.30089	0.47752
66.39403	0.49039
66.49751	0.50053
66.62169	0.53112
66.73552	0.60049
66.84935	0.68950
66.97353	0.79815
67.07701	0.94188
67.17014	1.09238
67.23223	1.29132
67.30467	1.47739
67.37710	1.65944
67.45989	1.80800
67.53233	1.95785
67.61511	2.06763
67.68755	2.17692
67.75999	2.25708
67.83243	2.34416
67.91521	2.37329
68.00834	2.37860
68.11183	2.32001
68.21531	2.24581
68.32914	2.12654
68.42227	1.98989
68.52575	1.83021
68.59819	1.70772
68.66028	1.56737
68.72237	1.42427
68.78446	1.33526
68.84655	1.22903
68.92933	1.13487
69.02247	1.07596
69.11560	1.00514
69.21908	0.93689
69.35361	0.89070
69.44674	0.82181
69.57092	0.77593
69.70545	0.75292
69.82963	0.71944
69.94346	0.68435
70.05729	0.64379
70.15042	0.61996
70.22286	0.61208
70.28495	0.58391
70.35739	0.56846
70.40913	0.55011
70.47122	0.54882
70.51261	0.52918
70.55400	0.52580
70.59539	0.51405
70.64713	0.50086
70.67818	0.49474
70.72992	0.49554
70.78166	0.48347
70.83340	0.48154
70.88514	0.48267
70.93688	0.47478
70.98863	0.46899
71.05071	0.45627
71.11280	0.46995
71.18524	0.44854
71.25768	0.44983
71.33012	0.44710
71.41290	0.44870
71.49569	0.45192
71.58882	0.45917
71.67161	0.46947
71.76474	0.47929
71.86822	0.47880
71.97170	0.47687
72.06484	0.46319
72.16832	0.46078
72.26145	0.44372
72.37528	0.44098
72.47877	0.44549
72.58225	0.44903
72.67538	0.46303
72.78921	0.45209
72.89269	0.44951
72.99618	0.44130
73.11001	0.44790
73.22384	0.45337
73.34801	0.45466
73.46184	0.44870
73.59637	0.46142
73.73090	0.45965
73.88612	0.45868
74.02065	0.45209
74.17587	0.46126
74.30005	0.45885
74.42423	0.45466
74.52771	0.47349
74.62084	0.46722
74.71398	0.46915
74.80711	0.45707
74.88990	0.47317
74.97268	0.47381
75.07616	0.46255
75.15895	0.47156
75.26243	0.47913
75.36591	0.46979
75.47974	0.48412
75.58322	0.48540
75.69705	0.48750
75.82123	0.48685
75.94541	0.47462
76.09029	0.48379
76.25586	0.48862
76.43178	0.48267
76.59735	0.46319
76.78362	0.47703
77.01128	0.47430
77.25963	0.49522
77.50799	0.47398
77.79774	0.47913
78.05644	0.47639
78.34619	0.48460
78.62559	0.48202
78.91534	0.48074
79.15335	0.47607
79.32927	0.49088
79.49484	0.48766
79.63972	0.50021
79.74320	0.50375
79.83633	0.49522
79.92947	0.50681
80.03295	0.49554